{
  "resourceType": "Bundle",
  "id": "bundle-17229",
  "meta": {
    "lastUpdated": "2022-02-07T11:37:35.756+05:30",
    "tag": [
      {
        "system": "http://terminology.hl7.org/CodeSystem/v3-ObservationValue",
        "code": "SUBSETTED",
        "display": "Resource encoded in summary mode"
      }
    ]
  },
  "identifier": {
    "system": "https://emrweb.ndhm.nha.gov.in",
    "value": "17229"
  },
  "type": "document",
  "timestamp": "2022-02-07T11:37:35.756+05:30",
  "entry": [
    {
      "fullUrl": "Composition/17229",
      "resource": {
        "resourceType": "Composition",
        "id": "17229",
        "meta": {
          "versionId": "1",
          "lastUpdated": "2022-02-07T11:37:35.756+05:30",
          "security": [
            {
              "system": "http://terminology.hl7.org/CodeSystem/v3-Confidentiality",
              "code": "V",
              "display": "Very Restricted"
            }
          ],
          "tag": [
            {
              "system": "http://terminology.hl7.org/CodeSystem/v3-ObservationValue",
              "code": "SUBSETTED",
              "display": "Resource encoded in summary mode"
            }
          ]
        },
        "language": "en-IN",
        "identifier": {
          "system": "https://emrweb.ndhm.nha.gov.in",
          "value": "17229"
        },
        "status": "final",
        "type": {
          "coding": [
            {
              "system": "https://snomedct.ndhm.gov.in",
              "code": "371530004",
              "display": "Clinical Consultation Report"
            }
          ],
          "text": "Clinical Consultation Report"
        },
        "subject": {
          "reference": "Patient/11665"
        },
        "encounter": {
          "reference": "Encounter/17229"
        },
        "date": "2022-02-07T11:37:35+05:30",
        "author": [
          {
            "reference": "Practitioner/78-5576-8431-3437"
          },
          {
            "reference": "Practitioner/78-5576-8431-3437"
          }
        ],
        "title": "Consultation Report",
        "custodian": {
          "reference": "Organization/IN3410000219",
          "display": "Kidney Center Hospital"
        },
        "section": [
          {
            "title": "Document Attachment",
            "entry": [
              {
                "reference": "DocumentReference/7504"
              }
            ]
          }
        ]
      }
    },
    {
      "fullUrl": "Patient/11665",
      "resource": {
        "resourceType": "Patient",
        "id": "11665",
        "meta": {
          "versionId": "1",
          "lastUpdated": "2022-02-07T11:38:46.000+05:30",
          "tag": [
            {
              "system": "http://terminology.hl7.org/CodeSystem/v3-ObservationValue",
              "code": "SUBSETTED",
              "display": "Resource encoded in summary mode"
            }
          ]
        },
        "identifier": [
          {
            "system": "https://emr.ndhm.gov.in",
            "value": "11665"
          }
        ],
        "name": [
          {
            "given": ["Aakash Shrivastava"]
          }
        ],
        "telecom": [
          {
            "system": "phone",
            "value": "7987291415",
            "use": "home"
          }
        ],
        "gender": "other",
        "birthDate": "1997-10-29"
      }
    },
    {
      "fullUrl": "Encounter/17229",
      "resource": {
        "resourceType": "Encounter",
        "id": "17229",
        "meta": {
          "versionId": "1",
          "lastUpdated": "2022-02-07T11:37:03.000+05:30",
          "tag": [
            {
              "system": "http://terminology.hl7.org/CodeSystem/v3-ObservationValue",
              "code": "SUBSETTED",
              "display": "Resource encoded in summary mode"
            }
          ]
        },
        "identifier": [
          {
            "system": "https://emr.ndhm.gov.in",
            "value": "17229"
          }
        ],
        "status": "finished",
        "class": {
          "system": "http://snomedct.ndhm.gov.in",
          "code": "OP",
          "display": "Out patient"
        }
      }
    },
    {
      "fullUrl": "Practitioner/78-5576-8431-3437",
      "resource": {
        "resourceType": "Practitioner",
        "id": "78-5576-8431-3437",
        "meta": {
          "versionId": "1",
          "lastUpdated": "2022-02-07T11:37:03.000+05:30",
          "tag": [
            {
              "system": "http://terminology.hl7.org/CodeSystem/v3-ObservationValue",
              "code": "SUBSETTED",
              "display": "Resource encoded in summary mode"
            }
          ]
        },
        "identifier": [
          {
            "system": "https://digidoc.ndhm.gov.in",
            "value": "78-5576-8431-3437"
          }
        ]
      }
    },
    {
      "fullUrl": "Organization/IN3410000219",
      "resource": {
        "resourceType": "Organization",
        "id": "IN3410000219",
        "meta": {
          "tag": [
            {
              "system": "http://terminology.hl7.org/CodeSystem/v3-ObservationValue",
              "code": "SUBSETTED",
              "display": "Resource encoded in summary mode"
            }
          ]
        },
        "identifier": [
          {
            "system": "https://facility.ndhm.gov.in",
            "value": "IN3410000219"
          }
        ],
        "name": "Kidney Center Hospital",
        "telecom": [
          {
            "system": "phone",
            "use": "work"
          }
        ]
      }
    },
    {
      "fullUrl": "DocumentReference/7504",
      "resource": {
        "resourceType": "DocumentReference",
        "id": "7504",
        "meta": {
          "tag": [
            {
              "system": "http://terminology.hl7.org/CodeSystem/v3-ObservationValue",
              "code": "SUBSETTED",
              "display": "Resource encoded in summary mode"
            }
          ]
        },
        "status": "current",
        "docStatus": "final",
        "type": {
          "coding": [
            {
              "system": "https://snomedct.ndhm.gov.in/loinc",
              "code": "371530004",
              "display": "Clinical Consultation report"
            }
          ],
          "text": "Clinical Consultation report"
        },
        "subject": {
          "reference": "Patient/org.nha.emr.web.entities.Patient@7fbf46a5"
        },
        "content": []
      }
    }
  ]
}
